{
  "resourceType": "Bundle",
  "id": "1a47cdd0-a740-4f40-8bdf-5ff98edf0e24",
  "meta": {
    "lastUpdated": "2025-03-21T13:17:11.319+01:00",
    "tag": [
      {
        "system": "https://gematik.de/fhir/StructureDefinition/filtered-endpoints-count",
        "code": "0",
        "display": "Reason: hideVersicherte"
      }
    ]
  },
  "type": "searchset",
  "total": 11,
  "entry": [
    {
      "fullUrl": "https://fhir-directory-ref.vzd.ti-dienste.de/fdv/search/HealthcareService/7b7ed5f9-c847-41a5-bc81-1d5c40d85e85",
      "resource": {
        "resourceType": "HealthcareService",
        "id": "7b7ed5f9-c847-41a5-bc81-1d5c40d85e85",
        "meta": {
          "versionId": "5",
          "lastUpdated": "2025-01-24T11:34:48.926+01:00",
          "source": "#xpXTFqiygYYxJAq8",
          "profile": [
            "https://gematik.de/fhir/directory/StructureDefinition/HealthcareServiceDirectory"
          ],
          "tag": [
            {
              "system": "https://gematik.de/fhir/directory/CodeSystem/Origin",
              "code": "ldap",
              "display": "Synchronized from LDAP VZD",
              "userSelected": false
            }
          ]
        },
        "identifier": [
          {
            "system": "https://gematik.de/fhir/directory/CodeSystem/ldapUID",
            "value": "24419e79-659f-47d6-b797-17a527daec4d"
          }
        ],
        "providedBy": {
          "reference": "Organization/dd4844f7-e351-4c92-b52e-1874f54378ec"
        },
        "type": [
          {
            "coding": [
              {
                "system": "https://gematik.de/fhir/directory/CodeSystem/PharmacyTypeCS",
                "code": "offizin-apotheke",
                "display": "Offizin-Apotheke"
              },
              {
                "system": "https://gematik.de/fhir/directory/CodeSystem/PharmacyTypeCS",
                "code": "krankenhausversorgende-apotheke",
                "display": "Krankenhausversorgende Apotheke"
              },
              {
                "system": "https://gematik.de/fhir/directory/CodeSystem/PharmacyTypeCS",
                "code": "heimversorgende-apotheke",
                "display": "Heimversorgende Apotheke"
              },
              {
                "system": "https://gematik.de/fhir/directory/CodeSystem/PharmacyTypeCS",
                "code": "versandapotheke",
                "display": "Versandapotheke"
              }
            ],
            "text": "ldap"
          },
          {
            "coding": [
              {
                "system": "https://gematik.de/fhir/directory/CodeSystem/PharmacyTypeCS",
                "code": "offizin-apotheke",
                "display": "Offizin-Apotheke"
              },
              {
                "system": "https://gematik.de/fhir/directory/CodeSystem/PharmacyTypeCS",
                "code": "versandapotheke",
                "display": "Versandapotheke"
              }
            ],
            "text": "apo-vzd"
          }
        ],
        "specialty": [
          {
            "coding": [
              {
                "system": "https://gematik.de/fhir/directory/CodeSystem/PharmacyHealthcareSpecialtyCS",
                "code": "10",
                "display": "Handverkauf"
              },
              {
                "system": "https://gematik.de/fhir/directory/CodeSystem/PharmacyHealthcareSpecialtyCS",
                "code": "40",
                "display": "Versand"
              }
            ],
            "text": "ldap"
          },
          {
            "coding": [
              {
                "system": "https://gematik.de/fhir/directory/CodeSystem/PharmacyHealthcareSpecialtyCS",
                "code": "30",
                "display": "Botendienst"
              },
              {
                "system": "https://gematik.de/fhir/directory/CodeSystem/PharmacyHealthcareSpecialtyCS",
                "code": "10",
                "display": "Handverkauf"
              },
              {
                "system": "https://gematik.de/fhir/directory/CodeSystem/PharmacyHealthcareSpecialtyCS",
                "code": "40",
                "display": "Versand"
              }
            ],
            "text": "apo-vzd"
          }
        ],
        "location": [
          {
            "reference": "Location/6bcf2914-bea6-401d-84ce-5f4f6226e243"
          }
        ],
        "coverageArea": [
          {
            "extension": [
              {
                "url": "https://gematik.de/fhir/directory/StructureDefinition/ServiceCoverageArea",
                "valueQuantity": {
                  "value": 10000,
                  "system": "http://unitsofmeasure.org",
                  "code": "m"
                }
              }
            ]
          }
        ],
        "availableTime": [
          {
            "daysOfWeek": [
              "mon"
            ],
            "availableStartTime": "08:00:00",
            "availableEndTime": "18:00:00"
          },
          {
            "daysOfWeek": [
              "tue"
            ],
            "availableStartTime": "08:00:00",
            "availableEndTime": "18:00:00"
          },
          {
            "daysOfWeek": [
              "wed"
            ],
            "availableStartTime": "08:00:00",
            "availableEndTime": "18:00:00"
          },
          {
            "daysOfWeek": [
              "thu"
            ],
            "availableStartTime": "08:00:00",
            "availableEndTime": "18:00:00"
          },
          {
            "daysOfWeek": [
              "fri"
            ],
            "availableStartTime": "08:00:00",
            "availableEndTime": "18:00:00"
          }
        ],
        "endpoint": [
          {
            "reference": "Endpoint/15f29fe3-4ef6-4d91-bbac-e193421374fb"
          }
        ]
      },
      "search": {
        "mode": "match"
      }
    },
    {
      "fullUrl": "https://fhir-directory-ref.vzd.ti-dienste.de/fdv/search/HealthcareService/af9b45af-4b0d-4d93-9cdf-ce18aa68802d",
      "resource": {
        "resourceType": "HealthcareService",
        "id": "af9b45af-4b0d-4d93-9cdf-ce18aa68802d",
        "meta": {
          "versionId": "4",
          "lastUpdated": "2025-01-24T11:34:49.643+01:00",
          "source": "#owEMti5faX8DMmiu",
          "profile": [
            "https://gematik.de/fhir/directory/StructureDefinition/HealthcareServiceDirectory"
          ],
          "tag": [
            {
              "system": "https://gematik.de/fhir/directory/CodeSystem/Origin",
              "code": "ldap",
              "display": "Synchronized from LDAP VZD",
              "userSelected": false
            }
          ]
        },
        "identifier": [
          {
            "system": "https://gematik.de/fhir/directory/CodeSystem/ldapUID",
            "value": "a2a97287-38c9-4c3b-937f-b817155b98cd"
          }
        ],
        "providedBy": {
          "reference": "Organization/179ad2f0-3a4e-482e-bfe8-df18514a05a3"
        },
        "type": [
          {
            "coding": [
              {
                "system": "https://gematik.de/fhir/directory/CodeSystem/PharmacyTypeCS",
                "code": "offizin-apotheke",
                "display": "Offizin-Apotheke"
              },
              {
                "system": "https://gematik.de/fhir/directory/CodeSystem/PharmacyTypeCS",
                "code": "versandapotheke",
                "display": "Versandapotheke"
              }
            ],
            "text": "apo-vzd"
          }
        ],
        "specialty": [
          {
            "coding": [
              {
                "system": "https://gematik.de/fhir/directory/CodeSystem/PharmacyHealthcareSpecialtyCS",
                "code": "30",
                "display": "Botendienst"
              },
              {
                "system": "https://gematik.de/fhir/directory/CodeSystem/PharmacyHealthcareSpecialtyCS",
                "code": "10",
                "display": "Handverkauf"
              },
              {
                "system": "https://gematik.de/fhir/directory/CodeSystem/PharmacyHealthcareSpecialtyCS",
                "code": "40",
                "display": "Versand"
              }
            ],
            "text": "apo-vzd"
          }
        ],
        "location": [
          {
            "reference": "Location/31bb4dcb-e75d-49bb-adc4-739a5e584e06"
          }
        ],
        "coverageArea": [
          {
            "extension": [
              {
                "url": "https://gematik.de/fhir/directory/StructureDefinition/ServiceCoverageArea",
                "valueQuantity": {
                  "value": 10000,
                  "system": "http://unitsofmeasure.org",
                  "code": "m"
                }
              }
            ]
          }
        ],
        "availableTime": [
          {
            "daysOfWeek": [
              "mon"
            ],
            "availableStartTime": "08:00:00",
            "availableEndTime": "18:00:00"
          },
          {
            "daysOfWeek": [
              "tue"
            ],
            "availableStartTime": "08:00:00",
            "availableEndTime": "18:00:00"
          },
          {
            "daysOfWeek": [
              "wed"
            ],
            "availableStartTime": "08:00:00",
            "availableEndTime": "18:00:00"
          },
          {
            "daysOfWeek": [
              "thu"
            ],
            "availableStartTime": "08:00:00",
            "availableEndTime": "18:00:00"
          },
          {
            "daysOfWeek": [
              "fri"
            ],
            "availableStartTime": "08:00:00",
            "availableEndTime": "18:00:00"
          }
        ],
        "endpoint": [
          {
            "reference": "Endpoint/0ce561ec-20d4-433b-8c06-c022297bcba8"
          }
        ]
      },
      "search": {
        "mode": "match"
      }
    },
    {
      "fullUrl": "https://fhir-directory-ref.vzd.ti-dienste.de/fdv/search/HealthcareService/283af018-651f-4ede-a313-f9b466464c0c",
      "resource": {
        "resourceType": "HealthcareService",
        "id": "283af018-651f-4ede-a313-f9b466464c0c",
        "meta": {
          "versionId": "4",
          "lastUpdated": "2025-01-24T11:34:49.857+01:00",
          "source": "#pnV7duurjz0Qwe4h",
          "profile": [
            "https://gematik.de/fhir/directory/StructureDefinition/HealthcareServiceDirectory"
          ],
          "tag": [
            {
              "system": "https://gematik.de/fhir/directory/CodeSystem/Origin",
              "code": "ldap",
              "display": "Synchronized from LDAP VZD",
              "userSelected": false
            }
          ]
        },
        "identifier": [
          {
            "system": "https://gematik.de/fhir/directory/CodeSystem/ldapUID",
            "value": "c43521d2-b0cd-4f7a-8b02-e45e3398f0a4"
          }
        ],
        "providedBy": {
          "reference": "Organization/b607e2e7-041b-44b5-b997-6edafba60f64"
        },
        "type": [
          {
            "coding": [
              {
                "system": "https://gematik.de/fhir/directory/CodeSystem/PharmacyTypeCS",
                "code": "offizin-apotheke",
                "display": "Offizin-Apotheke"
              },
              {
                "system": "https://gematik.de/fhir/directory/CodeSystem/PharmacyTypeCS",
                "code": "versandapotheke",
                "display": "Versandapotheke"
              }
            ],
            "text": "apo-vzd"
          }
        ],
        "specialty": [
          {
            "coding": [
              {
                "system": "https://gematik.de/fhir/directory/CodeSystem/PharmacyHealthcareSpecialtyCS",
                "code": "30",
                "display": "Botendienst"
              },
              {
                "system": "https://gematik.de/fhir/directory/CodeSystem/PharmacyHealthcareSpecialtyCS",
                "code": "10",
                "display": "Handverkauf"
              },
              {
                "system": "https://gematik.de/fhir/directory/CodeSystem/PharmacyHealthcareSpecialtyCS",
                "code": "40",
                "display": "Versand"
              }
            ],
            "text": "apo-vzd"
          }
        ],
        "location": [
          {
            "reference": "Location/54f8e2c3-2a46-4aa6-955c-a53920af814a"
          }
        ],
        "coverageArea": [
          {
            "extension": [
              {
                "url": "https://gematik.de/fhir/directory/StructureDefinition/ServiceCoverageArea",
                "valueQuantity": {
                  "value": 10000,
                  "system": "http://unitsofmeasure.org",
                  "code": "m"
                }
              }
            ]
          }
        ],
        "availableTime": [
          {
            "daysOfWeek": [
              "mon"
            ],
            "availableStartTime": "08:00:00",
            "availableEndTime": "18:00:00"
          },
          {
            "daysOfWeek": [
              "tue"
            ],
            "availableStartTime": "08:00:00",
            "availableEndTime": "18:00:00"
          },
          {
            "daysOfWeek": [
              "wed"
            ],
            "availableStartTime": "08:00:00",
            "availableEndTime": "18:00:00"
          },
          {
            "daysOfWeek": [
              "thu"
            ],
            "availableStartTime": "08:00:00",
            "availableEndTime": "18:00:00"
          },
          {
            "daysOfWeek": [
              "fri"
            ],
            "availableStartTime": "08:00:00",
            "availableEndTime": "18:00:00"
          }
        ]
      },
      "search": {
        "mode": "match"
      }
    },
    {
      "fullUrl": "https://fhir-directory-ref.vzd.ti-dienste.de/fdv/search/Location/54f8e2c3-2a46-4aa6-955c-a53920af814a",
      "resource": {
        "resourceType": "Location",
        "id": "54f8e2c3-2a46-4aa6-955c-a53920af814a",
        "meta": {
          "versionId": "3",
          "lastUpdated": "2025-01-24T11:34:49.954+01:00",
          "source": "#M1lzeTqS0kiPZ1K8",
          "profile": [
            "https://gematik.de/fhir/directory/StructureDefinition/LocationDirectory"
          ],
          "tag": [
            {
              "system": "https://gematik.de/fhir/directory/CodeSystem/Origin",
              "code": "ldap",
              "display": "Synchronized from LDAP VZD",
              "userSelected": false
            }
          ]
        },
        "identifier": [
          {
            "system": "https://gematik.de/fhir/directory/CodeSystem/ldapUID",
            "value": "c43521d2-b0cd-4f7a-8b02-e45e3398f0a4"
          }
        ],
        "address": {
          "use": "work",
          "type": "postal",
          "text": "Hauptstr. 11&#13;&#10;12346&#13;&#10;Ingolfstadt&#13;&#10;null&#13;&#10;DE",
          "line": [
            "Hauptstr. 11"
          ],
          "city": "Ingolfstadt",
          "postalCode": "12346",
          "country": "DE"
        },
        "position": {
          "longitude": 48.3536968,
          "latitude": 10.9447565
        }
      },
      "search": {
        "mode": "include"
      }
    },
    {
      "fullUrl": "https://fhir-directory-ref.vzd.ti-dienste.de/fdv/search/Organization/b607e2e7-041b-44b5-b997-6edafba60f64",
      "resource": {
        "resourceType": "Organization",
        "id": "b607e2e7-041b-44b5-b997-6edafba60f64",
        "meta": {
          "versionId": "1",
          "lastUpdated": "2024-04-10T14:14:07.026+02:00",
          "source": "#HDqaPJNe69Y3eiaO",
          "profile": [
            "https://gematik.de/fhir/directory/StructureDefinition/OrganizationDirectory"
          ],
          "tag": [
            {
              "system": "https://gematik.de/fhir/directory/CodeSystem/Origin",
              "code": "ldap",
              "display": "Synchronized from LDAP VZD",
              "userSelected": false
            }
          ]
        },
        "identifier": [
          {
            "type": {
              "coding": [
                {
                  "system": "http://terminology.hl7.org/CodeSystem/v2-0203",
                  "code": "PRN"
                }
              ]
            },
            "system": "https://gematik.de/fhir/sid/telematik-id",
            "value": "3-01.2.2023001.16.103"
          },
          {
            "system": "https://gematik.de/fhir/directory/CodeSystem/ldapUID",
            "value": "c43521d2-b0cd-4f7a-8b02-e45e3398f0a4"
          }
        ],
        "active": true,
        "type": [
          {
            "coding": [
              {
                "system": "https://gematik.de/fhir/directory/CodeSystem/OrganizationProfessionOID",
                "code": "1.2.276.0.76.4.54",
                "display": "Öffentliche Apotheke"
              }
            ]
          }
        ],
        "name": "Apotheke Christine Ulmendorfer TEST-ONLY"
      },
      "search": {
        "mode": "include"
      }
    },
    {
      "fullUrl": "https://fhir-directory-ref.vzd.ti-dienste.de/fdv/search/Location/31bb4dcb-e75d-49bb-adc4-739a5e584e06",
      "resource": {
        "resourceType": "Location",
        "id": "31bb4dcb-e75d-49bb-adc4-739a5e584e06",
        "meta": {
          "versionId": "3",
          "lastUpdated": "2025-01-24T11:34:49.746+01:00",
          "source": "#SbyxTOOoOGNCA73b",
          "profile": [
            "https://gematik.de/fhir/directory/StructureDefinition/LocationDirectory"
          ],
          "tag": [
            {
              "system": "https://gematik.de/fhir/directory/CodeSystem/Origin",
              "code": "ldap",
              "display": "Synchronized from LDAP VZD",
              "userSelected": false
            }
          ]
        },
        "identifier": [
          {
            "system": "https://gematik.de/fhir/directory/CodeSystem/ldapUID",
            "value": "a2a97287-38c9-4c3b-937f-b817155b98cd"
          }
        ],
        "address": {
          "use": "work",
          "type": "postal",
          "text": "Hauptstr. 11&#13;&#10;12346&#13;&#10;Ingolfstadt&#13;&#10;null&#13;&#10;DE",
          "line": [
            "Hauptstr. 11"
          ],
          "city": "Ingolfstadt",
          "postalCode": "12346",
          "country": "DE"
        },
        "position": {
          "longitude": 48.3536968,
          "latitude": 10.9447565
        }
      },
      "search": {
        "mode": "include"
      }
    },
    {
      "fullUrl": "https://fhir-directory-ref.vzd.ti-dienste.de/fdv/search/Organization/179ad2f0-3a4e-482e-bfe8-df18514a05a3",
      "resource": {
        "resourceType": "Organization",
        "id": "179ad2f0-3a4e-482e-bfe8-df18514a05a3",
        "meta": {
          "versionId": "1",
          "lastUpdated": "2024-04-10T14:13:51.606+02:00",
          "source": "#bLWmlwIY2mRLdtTS",
          "profile": [
            "https://gematik.de/fhir/directory/StructureDefinition/OrganizationDirectory"
          ],
          "tag": [
            {
              "system": "https://gematik.de/fhir/directory/CodeSystem/Origin",
              "code": "ldap",
              "display": "Synchronized from LDAP VZD",
              "userSelected": false
            }
          ]
        },
        "identifier": [
          {
            "type": {
              "coding": [
                {
                  "system": "http://terminology.hl7.org/CodeSystem/v2-0203",
                  "code": "PRN"
                }
              ]
            },
            "system": "https://gematik.de/fhir/sid/telematik-id",
            "value": "3-01.2.2023001.16.102"
          },
          {
            "system": "https://gematik.de/fhir/directory/CodeSystem/ldapUID",
            "value": "a2a97287-38c9-4c3b-937f-b817155b98cd"
          }
        ],
        "active": true,
        "type": [
          {
            "coding": [
              {
                "system": "https://gematik.de/fhir/directory/CodeSystem/OrganizationProfessionOID",
                "code": "1.2.276.0.76.4.54",
                "display": "Öffentliche Apotheke"
              }
            ]
          }
        ],
        "name": "Apotheke Bernd Ulmendorfer TEST-ONLY"
      },
      "search": {
        "mode": "include"
      }
    },
    {
      "fullUrl": "https://fhir-directory-ref.vzd.ti-dienste.de/fdv/search/Endpoint/0ce561ec-20d4-433b-8c06-c022297bcba8",
      "resource": {
        "resourceType": "Endpoint",
        "id": "0ce561ec-20d4-433b-8c06-c022297bcba8",
        "meta": {
          "versionId": "1",
          "lastUpdated": "2025-01-24T11:34:49.595+01:00",
          "source": "#EjpArlGks2UbtnLz",
          "profile": [
            "https://gematik.de/fhir/directory/StructureDefinition/EndpointDirectory"
          ],
          "tag": [
            {
              "system": "https://gematik.de/fhir/directory/CodeSystem/Origin",
              "code": "apo"
            }
          ]
        },
        "identifier": [
          {
            "system": "https://gematik.de/fhir/sid/telematik-id",
            "value": "3-01.2.2023001.16.102"
          }
        ],
        "status": "active",
        "connectionType": {
          "system": "https://gematik.de/fhir/directory/CodeSystem/EndpointDirectoryConnectionType",
          "code": "eRP-shipment"
        },
        "name": "eRP-shipment",
        "payloadType": [
          {
            "coding": [
              {
                "system": "http://terminology.hl7.org/CodeSystem/data-absent-reason",
                "code": "not-applicable"
              }
            ]
          }
        ],
        "address": "https://erp-pharmacy-serviceprovider.dev.gematik.solutions/delivery_only"
      },
      "search": {
        "mode": "include"
      }
    },
    {
      "fullUrl": "https://fhir-directory-ref.vzd.ti-dienste.de/fdv/search/Location/6bcf2914-bea6-401d-84ce-5f4f6226e243",
      "resource": {
        "resourceType": "Location",
        "id": "6bcf2914-bea6-401d-84ce-5f4f6226e243",
        "meta": {
          "versionId": "3",
          "lastUpdated": "2025-01-24T11:34:49.129+01:00",
          "source": "#d8MYzwI7dPKI7guf",
          "profile": [
            "https://gematik.de/fhir/directory/StructureDefinition/LocationDirectory"
          ],
          "tag": [
            {
              "system": "https://gematik.de/fhir/directory/CodeSystem/Origin",
              "code": "ldap",
              "display": "Synchronized from LDAP VZD",
              "userSelected": false
            }
          ]
        },
        "identifier": [
          {
            "system": "https://gematik.de/fhir/directory/CodeSystem/ldapUID",
            "value": "24419e79-659f-47d6-b797-17a527daec4d"
          }
        ],
        "address": {
          "use": "work",
          "type": "postal",
          "text": "Hauptstr. 11&#13;&#10;12346&#13;&#10;Ingolfstadt&#13;&#10;null&#13;&#10;DE",
          "line": [
            "Hauptstr. 11"
          ],
          "city": "Ingolfstadt",
          "postalCode": "12346",
          "country": "DE"
        },
        "position": {
          "longitude": 48.3536968,
          "latitude": 10.9447565
        }
      },
      "search": {
        "mode": "include"
      }
    },
    {
      "fullUrl": "https://fhir-directory-ref.vzd.ti-dienste.de/fdv/search/Organization/dd4844f7-e351-4c92-b52e-1874f54378ec",
      "resource": {
        "resourceType": "Organization",
        "id": "dd4844f7-e351-4c92-b52e-1874f54378ec",
        "meta": {
          "versionId": "1",
          "lastUpdated": "2024-04-10T14:13:30.186+02:00",
          "source": "#ze9cYK7TqEX9FnZT",
          "profile": [
            "https://gematik.de/fhir/directory/StructureDefinition/OrganizationDirectory"
          ],
          "tag": [
            {
              "system": "https://gematik.de/fhir/directory/CodeSystem/Origin",
              "code": "ldap",
              "display": "Synchronized from LDAP VZD",
              "userSelected": false
            }
          ]
        },
        "identifier": [
          {
            "type": {
              "coding": [
                {
                  "system": "http://terminology.hl7.org/CodeSystem/v2-0203",
                  "code": "PRN"
                }
              ]
            },
            "system": "https://gematik.de/fhir/sid/telematik-id",
            "value": "3-01.2.2023001.16.101"
          },
          {
            "system": "https://gematik.de/fhir/directory/CodeSystem/ldapUID",
            "value": "24419e79-659f-47d6-b797-17a527daec4d"
          }
        ],
        "active": true,
        "type": [
          {
            "coding": [
              {
                "system": "https://gematik.de/fhir/directory/CodeSystem/OrganizationProfessionOID",
                "code": "1.2.276.0.76.4.54",
                "display": "Öffentliche Apotheke"
              }
            ]
          }
        ],
        "name": "Apotheke Adelheid Ulmendorfer TEST-ONLY"
      },
      "search": {
        "mode": "include"
      }
    },
    {
      "fullUrl": "https://fhir-directory-ref.vzd.ti-dienste.de/fdv/search/Endpoint/15f29fe3-4ef6-4d91-bbac-e193421374fb",
      "resource": {
        "resourceType": "Endpoint",
        "id": "15f29fe3-4ef6-4d91-bbac-e193421374fb",
        "meta": {
          "versionId": "1",
          "lastUpdated": "2025-01-24T11:34:48.771+01:00",
          "source": "#q0qRwqBKgalhfeoE",
          "profile": [
            "https://gematik.de/fhir/directory/StructureDefinition/EndpointDirectory"
          ],
          "tag": [
            {
              "system": "https://gematik.de/fhir/directory/CodeSystem/Origin",
              "code": "apo"
            }
          ]
        },
        "identifier": [
          {
            "system": "https://gematik.de/fhir/sid/telematik-id",
            "value": "3-01.2.2023001.16.101"
          }
        ],
        "status": "active",
        "connectionType": {
          "system": "https://gematik.de/fhir/directory/CodeSystem/EndpointDirectoryConnectionType",
          "code": "eRP-onPremise"
        },
        "name": "eRP-onPremise",
        "payloadType": [
          {
            "coding": [
              {
                "system": "http://terminology.hl7.org/CodeSystem/data-absent-reason",
                "code": "not-applicable"
              }
            ]
          }
        ],
        "address": "https://erp-pharmacy-serviceprovider.dev.gematik.solutions/pick_up"
      },
      "search": {
        "mode": "include"
      }
    }
  ]
}