{
  "resourceType": "Bundle",
  "id": "2763f311-9bb6-4415-9aa9-4644c2b9c2ae",
  "meta": {
    "lastUpdated": "2025-03-21T13:35:27.633+01:00",
    "tag": [
      {
        "system": "https://gematik.de/fhir/StructureDefinition/filtered-endpoints-count",
        "code": "0",
        "display": "Reason: hideVersicherte"
      }
    ]
  },
  "type": "searchset",
  "total": 3,
  "entry": [
    {
      "fullUrl": "https://fhir-directory-ref.vzd.ti-dienste.de/fdv/search/HealthcareService/0a938eb1-4664-406f-a078-24766f7dd148",
      "resource": {
        "resourceType": "HealthcareService",
        "id": "0a938eb1-4664-406f-a078-24766f7dd148",
        "meta": {
          "versionId": "4",
          "lastUpdated": "2025-01-24T11:34:50.898+01:00",
          "source": "#q0WRaNo5nnzPqlp6",
          "profile": [
            "https://gematik.de/fhir/directory/StructureDefinition/HealthcareServiceDirectory"
          ],
          "tag": [
            {
              "system": "https://gematik.de/fhir/directory/CodeSystem/Origin",
              "code": "ldap",
              "display": "Synchronized from LDAP VZD",
              "userSelected": false
            }
          ]
        },
        "identifier": [
          {
            "system": "https://gematik.de/fhir/directory/CodeSystem/ldapUID",
            "value": "9ae1d399-d36c-40f6-a3a0-66847b45675d"
          }
        ],
        "providedBy": {
          "reference": "Organization/b04058cf-dcd9-4cd8-bd10-85eaeafb8dd6"
        },
        "location": [
          {
            "reference": "Location/09e2c579-a6ec-41f7-aeed-d1bb2d310d64"
          }
        ],
        "availableTime": [
          {
            "daysOfWeek": [
              "mon"
            ],
            "availableStartTime": "08:00:00",
            "availableEndTime": "18:00:00"
          },
          {
            "daysOfWeek": [
              "tue"
            ],
            "availableStartTime": "08:00:00",
            "availableEndTime": "18:00:00"
          },
          {
            "daysOfWeek": [
              "wed"
            ],
            "availableStartTime": "08:00:00",
            "availableEndTime": "18:00:00"
          },
          {
            "daysOfWeek": [
              "thu"
            ],
            "availableStartTime": "08:00:00",
            "availableEndTime": "18:00:00"
          },
          {
            "daysOfWeek": [
              "fri"
            ],
            "availableStartTime": "08:00:00",
            "availableEndTime": "18:00:00"
          }
        ]
      },
      "search": {
        "mode": "match"
      }
    },
    {
      "fullUrl": "https://fhir-directory-ref.vzd.ti-dienste.de/fdv/search/Location/09e2c579-a6ec-41f7-aeed-d1bb2d310d64",
      "resource": {
        "resourceType": "Location",
        "id": "09e2c579-a6ec-41f7-aeed-d1bb2d310d64",
        "meta": {
          "versionId": "3",
          "lastUpdated": "2025-01-24T11:34:50.972+01:00",
          "source": "#K0wQBZ9gcgNjDLmX",
          "profile": [
            "https://gematik.de/fhir/directory/StructureDefinition/LocationDirectory"
          ],
          "tag": [
            {
              "system": "https://gematik.de/fhir/directory/CodeSystem/Origin",
              "code": "ldap",
              "display": "Synchronized from LDAP VZD",
              "userSelected": false
            }
          ]
        },
        "identifier": [
          {
            "system": "https://gematik.de/fhir/directory/CodeSystem/ldapUID",
            "value": "9ae1d399-d36c-40f6-a3a0-66847b45675d"
          }
        ],
        "address": {
          "use": "work",
          "type": "postal",
          "text": "ZoTIstr. 01&#13;&#10;10117&#13;&#10;ZoTI-Town&#13;&#10;null&#13;&#10;DE",
          "line": [
            "ZoTIstr. 01"
          ],
          "city": "ZoTI-Town",
          "postalCode": "10117",
          "country": "DE"
        },
        "position": {
          "longitude": 52.5226398750957,
          "latitude": 13.387627883956709
        }
      },
      "search": {
        "mode": "include"
      }
    },
    {
      "fullUrl": "https://fhir-directory-ref.vzd.ti-dienste.de/fdv/search/Organization/b04058cf-dcd9-4cd8-bd10-85eaeafb8dd6",
      "resource": {
        "resourceType": "Organization",
        "id": "b04058cf-dcd9-4cd8-bd10-85eaeafb8dd6",
        "meta": {
          "versionId": "1",
          "lastUpdated": "2024-04-09T16:28:36.930+02:00",
          "source": "#Anw9TeYq6vU4JyCN",
          "profile": [
            "https://gematik.de/fhir/directory/StructureDefinition/OrganizationDirectory"
          ],
          "tag": [
            {
              "system": "https://gematik.de/fhir/directory/CodeSystem/Origin",
              "code": "ldap",
              "display": "Synchronized from LDAP VZD",
              "userSelected": false
            }
          ]
        },
        "identifier": [
          {
            "type": {
              "coding": [
                {
                  "system": "http://terminology.hl7.org/CodeSystem/v2-0203",
                  "code": "PRN"
                }
              ]
            },
            "system": "https://gematik.de/fhir/sid/telematik-id",
            "value": "3-01.2.2023001.16.201"
          },
          {
            "system": "https://gematik.de/fhir/directory/CodeSystem/ldapUID",
            "value": "9ae1d399-d36c-40f6-a3a0-66847b45675d"
          }
        ],
        "active": true,
        "type": [
          {
            "coding": [
              {
                "system": "https://gematik.de/fhir/directory/CodeSystem/OrganizationProfessionOID",
                "code": "1.2.276.0.76.4.54",
                "display": "Öffentliche Apotheke"
              }
            ]
          }
        ],
        "name": "ZoTI_01_TEST-ONLY",
        "alias": [
          "ZoTI_01_TEST-ONLY"
        ]
      },
      "search": {
        "mode": "include"
      }
    }
  ]
}